Folder: Week2_OpenSpecy

Note: README.md
# Week 2: Open Specy
Open Specy is a tool that can analyze plastic and environmental samples and then compare them to a metadata library to allow users to determine the type of material they are made of. This data can then be shared with the Open Specy community to expand the materials library.  


## How it works
The [Open Specy website](https://openanalysis.org/openspecy/) reads spectral data files (.asp, .csv, .jdx, .spc, .spa, and .0) and displays them on an easy-to-read spectra plot. It then gives users the ability to preprocess their data using sliders that control smoothing, baseline correction, and spectral range. Once this is done, the site compares the plots to either a Raman or FTIR spectra and displays the most similar plots from its library. The results contain Pearson's r correlation values to show how correlated the plots are, as well as the material, sample ID, and organization/affiliations.

File: ftir_pva_without_header.csv
6.749918e+002,1.356988e-002
6.865631e+002,1.363638e-002
6.981344e+002,1.319769e-002
7.097057e+002,1.071902e-002
7.212770e+002,9.843816e-003
7.328483e+002,1.225499e-002
7.444196e+002,1.428957e-002
7.559908e+002,1.283235e-002
7.675621e+002,1.094351e-002
7.791334e+002,1.153178e-002
7.907047e+002,1.270333e-002
8.022760e+002,1.107235e-002
8.138473e+002,8.601830e-003
8.254186e+002,8.034328e-003
8.369899e+002,9.128306e-003
8.485612e+002,1.007554e-002
8.601324e+002,1.227545e-002
8.717037e+002,1.553407e-002
8.832750e+002,2.056533e-002
8.948463e+002,3.154074e-002
9.064176e+002,4.205434e-002
9.179889e+002,4.529941e-002
9.295602e+002,4.101701e-002
9.411315e+002,3.409100e-002
9.527028e+002,3.032385e-002
9.642740e+002,3.020691e-002
9.758453e+002,4.043837e-002
9.874166e+002,6.180535e-002
9.989879e+002,7.997696e-002
1.010559e+003,8.883470e-002
1.022130e+003,8.934432e-002
1.033702e+003,8.221424e-002
1.045273e+003,6.877752e-002
1.056844e+003,5.055479e-002
1.068416e+003,4.034366e-002
1.079987e+003,3.430025e-002
1.091558e+003,3.028560e-002
1.103130e+003,2.886898e-002
1.114701e+003,2.614072e-002
1.126272e+003,2.057257e-002
1.137843e+003,1.377894e-002
1.149415e+003,1.064017e-002
1.160986e+003,9.932852e-003
1.172557e+003,9.439696e-003
1.184129e+003,9.135606e-003
1.195700e+003,9.515853e-003
1.207271e+003,1.138123e-002
1.218842e+003,1.560694e-002
1.230414e+003,2.063141e-002
1.241985e+003,2.281516e-002
1.253556e+003,1.993453e-002
1.265128e+003,1.439417e-002
1.276699e+003,9.653929e-003
1.288270e+003,7.257168e-003
1.299841e+003,6.674698e-003
1.311413e+003,6.884094e-003
1.322984e+003,7.252146e-003
1.334555e+003,7.820467e-003
1.346127e+003,9.375306e-003
1.357698e+003,1.259638e-002
1.369269e+003,1.470640e-002
1.380840e+003,1.417225e-002
1.392412e+003,1.249931e-002
1.403983e+003,1.258837e-002
1.415554e+003,1.412931e-002
1.427125e+003,1.495408e-002
1.438697e+003,1.463419e-002
1.450268e+003,1.322433e-002
1.461839e+003,1.195851e-002
1.473411e+003,1.143150e-002
1.484982e+003,1.101229e-002
1.496553e+003,1.049484e-002
1.508125e+003,9.705736e-003
1.519696e+003,1.000142e-002
1.531267e+003,1.005052e-002
1.542838e+003,1.044164e-002
1.554410e+003,1.057689e-002
1.565981e+003,1.060979e-002
1.577552e+003,1.052020e-002
1.589124e+003,1.041616e-002
1.600695e+003,1.061550e-002
1.612266e+003,1.085001e-002
1.623837e+003,1.117506e-002
1.635409e+003,1.126754e-002
1.646980e+003,1.125479e-002
1.658551e+003,1.151884e-002
1.670123e+003,1.159574e-002
1.681694e+003,1.137580e-002
1.693265e+003,1.098471e-002
1.704837e+003,1.193737e-002
1.716408e+003,1.828463e-002
1.727979e+003,2.776254e-002
1.739550e+003,3.010015e-002
1.751122e+003,2.212882e-002
1.762693e+003,1.231993e-002
1.774264e+003,9.305296e-003
1.785836e+003,9.812250e-003
1.797407e+003,1.004412e-002
1.808978e+003,1.034904e-002
1.820549e+003,1.045878e-002
1.832121e+003,1.042809e-002
1.843692e+003,1.033001e-002
1.855263e+003,1.032601e-002
1.866835e+003,1.037790e-002
1.878406e+003,1.049069e-002
1.889977e+003,1.057132e-002
1.901548e+003,1.090042e-002
1.913120e+003,1.091610e-002
1.924691e+003,1.098118e-002
1.936262e+003,1.094700e-002
1.947834e+003,1.119886e-002
1.959405e+003,1.122780e-002
1.970976e+003,1.123335e-002
1.982547e+003,1.104423e-002
1.994119e+003,1.086495e-002
2.005690e+003,1.074743e-002
2.017261e+003,1.075830e-002
2.028833e+003,1.053431e-002
2.040404e+003,1.031808e-002
2.051975e+003,1.034015e-002
2.063546e+003,1.039960e-002
2.075118e+003,1.044914e-002
2.086689e+003,1.012753e-002
2.098260e+003,1.002306e-002
2.109832e+003,1.001783e-002
2.121403e+003,9.967565e-003
2.132974e+003,9.773585e-003
2.144545e+003,9.467125e-003
2.156117e+003,9.552747e-003
2.167688e+003,9.515675e-003
2.179259e+003,9.620964e-003
2.190831e+003,9.315977e-003
2.202402e+003,9.114905e-003
2.213973e+003,9.185011e-003
2.225544e+003,9.467110e-003
2.237116e+003,9.628297e-003
2.248687e+003,9.408633e-003
2.260258e+003,9.311355e-003
2.271830e+003,9.556197e-003
2.283401e+003,9.774841e-003
2.294972e+003,9.532671e-003
2.306543e+003,9.291625e-003
2.318115e+003,9.428080e-003
2.329686e+003,1.008257e-002
2.341257e+003,1.049517e-002
2.352829e+003,1.037311e-002
2.364400e+003,1.044059e-002
2.375971e+003,1.071372e-002
2.387542e+003,1.075217e-002
2.399114e+003,1.049028e-002
2.410685e+003,1.014705e-002
2.422256e+003,9.976486e-003
2.433828e+003,1.010163e-002
2.445399e+003,1.012882e-002
2.456970e+003,1.025957e-002
2.468542e+003,1.044647e-002
2.480113e+003,1.058921e-002
2.491684e+003,1.079497e-002
2.503255e+003,1.091958e-002
2.514827e+003,1.114862e-002
2.526398e+003,1.085153e-002
2.537969e+003,1.078233e-002
2.549541e+003,1.063503e-002
2.561112e+003,1.065281e-002
2.572683e+003,1.070927e-002
2.584254e+003,1.086809e-002
2.595826e+003,1.083494e-002
2.607397e+003,1.069163e-002
2.618968e+003,1.050719e-002
2.630540e+003,1.046598e-002
2.642111e+003,1.036621e-002
2.653682e+003,1.052745e-002
2.665253e+003,1.092896e-002
2.676825e+003,1.095966e-002
2.688396e+003,1.085953e-002
2.699967e+003,1.057175e-002
2.711539e+003,1.089208e-002
2.723110e+003,1.085157e-002
2.734681e+003,1.116190e-002
2.746252e+003,1.136197e-002
2.757824e+003,1.151239e-002
2.769395e+003,1.166399e-002
2.780966e+003,1.179319e-002
2.792538e+003,1.187854e-002
2.804109e+003,1.177113e-002
2.815680e+003,1.150002e-002
2.827251e+003,1.179283e-002
2.838823e+003,1.079109e-002
2.850394e+003,1.036844e-002
2.861965e+003,1.079387e-002
2.873537e+003,1.203465e-002
2.885108e+003,1.216103e-002
2.896679e+003,1.141730e-002
2.908250e+003,9.462191e-003
2.919822e+003,8.175272e-003
2.931393e+003,8.606451e-003
2.942964e+003,1.058573e-002
2.954536e+003,1.225193e-002
2.966107e+003,1.339735e-002
2.977678e+003,1.371058e-002
2.989250e+003,1.327884e-002
3.000821e+003,1.217482e-002
3.012392e+003,1.146849e-002
3.023963e+003,1.115674e-002
3.035535e+003,1.068033e-002
3.047106e+003,1.048614e-002
3.058677e+003,1.026863e-002
3.070249e+003,1.066577e-002
3.081820e+003,1.096168e-002
3.093391e+003,1.124583e-002
3.104962e+003,1.132643e-002
3.116534e+003,1.130510e-002
3.128105e+003,1.089934e-002
3.139676e+003,1.066245e-002
3.151248e+003,1.070876e-002
3.162819e+003,1.095796e-002
3.174390e+003,1.062032e-002
3.185961e+003,1.117101e-002
3.197533e+003,1.171973e-002
3.209104e+003,1.230462e-002
3.220675e+003,1.169088e-002
3.232247e+003,1.147852e-002
3.243818e+003,1.206102e-002
3.255389e+003,1.217522e-002
3.266960e+003,1.236552e-002
3.278532e+003,1.268961e-002
3.290103e+003,1.309116e-002
3.301674e+003,1.300128e-002
3.313246e+003,1.331528e-002
3.324817e+003,1.394332e-002
3.336388e+003,1.380801e-002
3.347959e+003,1.305117e-002
3.359531e+003,1.289482e-002
3.371102e+003,1.334785e-002
3.382673e+003,1.438366e-002
3.394245e+003,1.456029e-002
3.405816e+003,1.380981e-002
3.417387e+003,1.346900e-002
3.428958e+003,1.387123e-002
3.440530e+003,1.471285e-002
3.452101e+003,1.465402e-002
3.463672e+003,1.435907e-002
3.475244e+003,1.434148e-002
3.486815e+003,1.495739e-002
3.498386e+003,1.542578e-002
3.509958e+003,1.465420e-002
3.521529e+003,1.451651e-002
3.533100e+003,1.508406e-002
3.544671e+003,1.531801e-002
3.556243e+003,1.543327e-002
3.567814e+003,1.663759e-002
3.579385e+003,1.793661e-002
3.590957e+003,1.906048e-002
3.602528e+003,2.713294e-002
3.614099e+003,3.600202e-002
3.625670e+003,4.223229e-002
3.637242e+003,4.441952e-002
3.648813e+003,4.637874e-002
3.660384e+003,4.909901e-002
3.671956e+003,5.469664e-002
3.683527e+003,6.173789e-002
3.695098e+003,5.368695e-002
3.706669e+003,3.082010e-002
3.718241e+003,8.483609e-003
3.729812e+003,3.868362e-003
3.741383e+003,5.516661e-003
3.752955e+003,8.494817e-003
3.764526e+003,8.514578e-003
3.776097e+003,9.998000e-003
3.787668e+003,1.107990e-002
3.799240e+003,1.113288e-002
3.810811e+003,8.997108e-003
3.822382e+003,7.482627e-003
3.833954e+003,7.937810e-003
3.845525e+003,9.493418e-003
3.857096e+003,8.892321e-003
3.868667e+003,9.078925e-003
3.880239e+003,8.266904e-003
3.891810e+003,8.335412e-003
3.903381e+003,8.250835e-003
3.914953e+003,8.039702e-003
3.926524e+003,8.930180e-003
3.938095e+003,8.837570e-003
3.949667e+003,8.770626e-003
3.961238e+003,9.028221e-003
3.972809e+003,9.814160e-003
3.984380e+003,1.081884e-002
3.995952e+003,1.103388e-002
3.999809e+003,1.105751e-002